#  E (eV)   dos(E)     Int dos(E) EFermi =    4.352 eV
  -5.000  0.4361E-84  0.4361E-85
  -4.900  0.4361E-84  0.8723E-85
  -4.800  0.4361E-84  0.1308E-84
  -4.700  0.4361E-84  0.1745E-84
  -4.600  0.4361E-84  0.2181E-84
  -4.500  0.4623E-83  0.6804E-84
  -4.400  0.1751E-74  0.1751E-75
  -4.300  0.2485E-66  0.2485E-67
  -4.200  0.1198E-58  0.1198E-59
  -4.100  0.1964E-51  0.1964E-52
  -4.000  0.1094E-44  0.1094E-45
  -3.900  0.2073E-38  0.2073E-39
  -3.800  0.1335E-32  0.1335E-33
  -3.700  0.2925E-27  0.2925E-28
  -3.600  0.2183E-22  0.2183E-23
  -3.500  0.5548E-18  0.5549E-19
  -3.400  0.4813E-14  0.4813E-15
  -3.300  0.1427E-10  0.1428E-11
  -3.200  0.1451E-07  0.1452E-08
  -3.100  0.5079E-05  0.5093E-06
  -3.000  0.6162E-03  0.6213E-04
  -2.900  0.2623E-01  0.2685E-02
  -2.800  0.4017E+00  0.4286E-01
  -2.700  0.2337E+01  0.2765E+00
  -2.600  0.5739E+01  0.8504E+00
  -2.500  0.6898E+01  0.1540E+01
  -2.400  0.4478E+01  0.1988E+01
  -2.300  0.1620E+01  0.2150E+01
  -2.200  0.1068E+01  0.2257E+01
  -2.100  0.2893E+01  0.2546E+01
  -2.000  0.5368E+01  0.3083E+01
  -1.900  0.5653E+01  0.3648E+01
  -1.800  0.3724E+01  0.4021E+01
  -1.700  0.3702E+01  0.4391E+01
  -1.600  0.5265E+01  0.4917E+01
  -1.500  0.5566E+01  0.5474E+01
  -1.400  0.4209E+01  0.5895E+01
  -1.300  0.2081E+01  0.6103E+01
  -1.200  0.5336E+00  0.6156E+01
  -1.100  0.6313E-01  0.6163E+01
  -1.000  0.1101E+00  0.6174E+01
  -0.900  0.5333E+00  0.6227E+01
  -0.800  0.9346E+00  0.6321E+01
  -0.700  0.8245E+00  0.6403E+01
  -0.600  0.9162E+00  0.6495E+01
  -0.500  0.7443E+00  0.6569E+01
  -0.400  0.2302E+00  0.6592E+01
  -0.300  0.2487E-01  0.6595E+01
  -0.200  0.6629E-02  0.6595E+01
  -0.100  0.9140E-01  0.6604E+01
   0.000  0.5319E+00  0.6658E+01
   0.100  0.1406E+01  0.6798E+01
   0.200  0.2510E+01  0.7049E+01
   0.300  0.2925E+01  0.7342E+01
   0.400  0.2763E+01  0.7618E+01
   0.500  0.4473E+01  0.8065E+01
   0.600  0.6217E+01  0.8687E+01
   0.700  0.5312E+01  0.9218E+01
   0.800  0.4401E+01  0.9658E+01
   0.900  0.6442E+01  0.1030E+02
   1.000  0.7656E+01  0.1107E+02
   1.100  0.4593E+01  0.1153E+02
   1.200  0.1603E+01  0.1169E+02
   1.300  0.1261E+01  0.1181E+02
   1.400  0.2278E+01  0.1204E+02
   1.500  0.2953E+01  0.1234E+02
   1.600  0.3199E+01  0.1266E+02
   1.700  0.5459E+01  0.1320E+02
   1.800  0.7118E+01  0.1391E+02
   1.900  0.5848E+01  0.1450E+02
   2.000  0.5041E+01  0.1500E+02
   2.100  0.5231E+01  0.1553E+02
   2.200  0.5857E+01  0.1611E+02
   2.300  0.7661E+01  0.1688E+02
   2.400  0.1050E+02  0.1793E+02
   2.500  0.1160E+02  0.1909E+02
   2.600  0.1161E+02  0.2025E+02
   2.700  0.1123E+02  0.2137E+02
   2.800  0.8034E+01  0.2218E+02
   2.900  0.4506E+01  0.2263E+02
   3.000  0.3212E+01  0.2295E+02
   3.100  0.3305E+01  0.2328E+02
   3.200  0.4146E+01  0.2369E+02
   3.300  0.6828E+01  0.2438E+02
   3.400  0.9153E+01  0.2529E+02
   3.500  0.8306E+01  0.2612E+02
   3.600  0.4805E+01  0.2660E+02
   3.700  0.2338E+01  0.2684E+02
   3.800  0.1965E+01  0.2703E+02
   3.900  0.2396E+01  0.2727E+02
   4.000  0.2435E+01  0.2751E+02
   4.100  0.1596E+01  0.2767E+02
   4.200  0.1062E+01  0.2778E+02
   4.300  0.1202E+01  0.2790E+02
   4.400  0.7888E+00  0.2798E+02
   4.500  0.1881E+00  0.2800E+02
   4.600  0.1537E-01  0.2800E+02
   4.700  0.4273E-03  0.2800E+02
   4.800  0.4036E-05  0.2800E+02
   4.900  0.1296E-07  0.2800E+02
   5.000  0.1413E-10  0.2800E+02
   5.100  0.5235E-14  0.2800E+02
   5.200  0.6590E-18  0.2800E+02
   5.300  0.2818E-22  0.2800E+02
   5.400  0.4094E-27  0.2800E+02
   5.500  0.2020E-32  0.2800E+02
   5.600  0.3386E-38  0.2800E+02
   5.700  0.1928E-44  0.2800E+02
   5.800  0.3729E-51  0.2800E+02
   5.900  0.2450E-58  0.2800E+02
   6.000  0.5465E-66  0.2800E+02
   6.100  0.4141E-74  0.2800E+02
   6.200  0.1109E-82  0.2800E+02
   6.300  0.4361E-84  0.2800E+02
   6.400  0.4361E-84  0.2800E+02
   6.500  0.4361E-84  0.2800E+02
   6.600  0.4361E-84  0.2800E+02
   6.700  0.4361E-84  0.2800E+02
   6.800  0.4361E-84  0.2800E+02
   6.900  0.4361E-84  0.2800E+02
   7.000  0.4361E-84  0.2800E+02
   7.100  0.4361E-84  0.2800E+02
   7.200  0.4361E-84  0.2800E+02
   7.300  0.4361E-84  0.2800E+02
   7.400  0.4361E-84  0.2800E+02
   7.500  0.4361E-84  0.2800E+02
   7.600  0.4361E-84  0.2800E+02
   7.700  0.4361E-84  0.2800E+02
   7.800  0.4361E-84  0.2800E+02
   7.900  0.4361E-84  0.2800E+02
   8.000  0.4361E-84  0.2800E+02
   8.100  0.4361E-84  0.2800E+02
   8.200  0.4361E-84  0.2800E+02
   8.300  0.4361E-84  0.2800E+02
   8.400  0.4361E-84  0.2800E+02
   8.500  0.4361E-84  0.2800E+02
   8.600  0.4361E-84  0.2800E+02
   8.700  0.4361E-84  0.2800E+02
   8.800  0.4361E-84  0.2800E+02
   8.900  0.4361E-84  0.2800E+02
   9.000  0.4361E-84  0.2800E+02
